Folder: DISMAT-Utils/Rigaku_Lab_XRD

Note: Rigaku_Lab_XRD/README.md
# Rigaku Raw File Converter

This script converts the output of our lab XRD from Rigaku RAW (old) to

Note: Rigaku_Lab_XRD/Rigaku.md
# Rigaku Lab XRD

This directory has a script that can be used to convert the output `.RAW` format files to a text `.xy` file. Jade Powder converter online or PowDLL also work as alternative methods of converting the file.

## Maintanence

## Troubleshooting

- **CW** Warning
    - Means water flow is insufficient for operating the XRD. This may indicate a blockage somewhere in the cooling system. Cleaning the tube filter (metal screen on top of XRD tube) will resolve this problem if no easily visible issue can be found.

File: SIO2_100%_conv.xy
# scan speed: 1.0
# theta min: 5.0
# theta_max: 85.0
# spacing: 0.05
# two theta, intensity
5.0 76.0
5.3 70.0
5.6 77.6667
5.9 84.3333
6.2 94.0
6.5 111.333
6.8 105.333
7.1 107.667
7.4 112.333
7.7 114.0
8 135.667
8.3 127.0
8.6 142.667
8.9 151.0
9.2 144.667
9.5 150.333
9.8 152.667
10.1 161.333
10.4 159.333
10.7 164.333
11 163.333
11.3 174.667
11.6 158.0
11.9 158.333
12.2 162.0
12.5 159.333
12.8 152.667
13.1 154.667
13.4 158.667
13.7 157.667
14 161.667
14.3 164.333
14.6 157.667
14.9 157.667
15.2 160.333
15.5 170.0
15.8 177.667
16.1 162.333
16.4 181.0
16.7 190.667
17 180.667
17.3 190.0
17.6 191.333
17.9 203.667
18.2 212.0
18.5 229.667
18.8 249.667
19.1 231.667
19.4 263.333
19.7 267.333
20 277.0
20.3 306.667
20.6 293.667
20.9 330.0
21.2 321.667
21.5 332.0
21.8 314.667
22.1 333.333
22.4 331.667
22.7 309.333
23 301.333
23.3 302.0
23.6 294.333
23.9 281.667
24.2 283.667
24.5 259.333
24.8 274.667
25.1 251.0
25.4 257.0
25.7 249.667
26 245.667
26.3 238.0
26.6 224.0
26.9 228.333
27.2 215.667
27.5 222.0
27.8 205.0
28.1 212.667
28.4 203.667
28.7 181.0
29 194.0
29.3 201.667
29.6 195.667
29.9 202.0
30.2 201.667
30.5 187.667
30.8 199.333
31.1 180.0
31.4 183.0
31.7 188.333
32 176.667
32.3 184.667
32.6 170.667
32.9 167.667
33.2 182.0
33.5 187.0
33.8 156.333
34.1 169.667
34.4 169.667
34.7 173.667
35 169.667
35.3 167.667
35.6 158.0
35.9 164.667
36.2 185.667
36.5 167.333
36.8 167.333
37.1 161.333
37.4 155.0
37.7 158.333
38 159.667
38.3 151.0
38.6 177.333
38.9 154.667
39.2 155.667
39.5 162.333
39.8 151.333
40.1 150.333
40.4 152.333
40.7 144.0
41 146.667
41.3 149.333
41.6 149.0
41.9 138.0
42.2 150.333
42.5 143.667
42.8 155.333
43.1 138.667
43.4 156.0
43.7 145.667
44 152.0
44.3 135.667
44.6 148.333
44.9 161.333
45.2 157.0
45.5 159.0
45.8 138.333
46.1 137.667
46.4 169.0
46.7 142.333
47 160.333
47.3 151.333
47.6 139.333
47.9 155.667
48.2 137.667
48.5 138.333
48.8 152.667
49.1 139.667
49.4 145.333
49.7 151.0
50 148.0
50.3 138.667
50.6 150.333
50.9 150.0
51.2 153.0
51.5 138.667
51.8 144.333
52.1 144.667
52.4 153.0
52.7 140.0
53 142.333
53.3 153.667
53.6 146.333
53.9 153.333
54.2 143.0
54.5 141.0
54.8 147.0
55.1 136.667
55.4 158.333
55.7 144.333
56 156.0
56.3 152.0
56.6 147.0
56.9 152.667
57.2 142.333
57.5 166.667
57.8 153.667
58.1 152.333
58.4 154.0
58.7 158.0
59 173.0
59.3 167.0
59.6 154.667
59.9 156.0
60.2 158.0
60.5 165.333
60.8 183.667
61.1 169.667
61.4 170.0
61.7 170.667
62 167.0
62.3 166.667
62.6 166.333
62.9 170.333
63.2 175.0
63.5 164.667
63.8 191.0
64.1 170.667
64.4 181.333
64.7 158.333
65 169.333
65.3 165.667
65.6 181.667
65.9 179.0
66.2 175.333
66.5 187.0
66.8 171.0
67.1 178.0
67.4 174.0
67.7 181.333
68 168.0
68.3 174.0
68.6 183.333
68.9 178.667
69.2 161.0
69.5 189.667
69.8 170.667
70.1 176.667
70.4 171.0
70.7 170.667
71 173.333
71.3 169.667
71.6 164.333
71.9 183.667
72.2 185.0
72.5 180.0
72.8 187.333
73.1 177.667
73.4 186.333
73.7 182.0
74 186.0
74.3 174.667
74.6 185.667
74.9 184.667
75.2 179.0
75.5 171.667
75.8 179.333
76.1 175.667
76.4 178.0
76.7 176.667
77 178.0
77.3 180.333
77.6 186.667
77.9 191.333
78.2 179.667
78.5 177.0
78.8 172.0
79.1 181.0
79.4 169.667
79.7 180.333
80 166.667
80.3 172.333
80.6 176.667
80.9 176.667
81.2 171.333
81.5 172.667
81.8 165.333
82.1 167.0
82.4 154.667
82.7 167.0
83 153.667
83.3 160.667
83.6 159.333
83.9 151.333
84.2 149.333
84.5 143.667
84.8 150.0

File: SIO2_quartz_conv.xy
# scan speed: 2.0
# theta min: 5.0
# theta_max: 85.0
# spacing: 0.05
# two theta, intensity
5.0 38.6667
5.3 49.3333
5.6 55.3333
5.9 60.0
6.2 50.0
6.5 61.3333
6.8 52.6667
7.1 63.3333
7.4 67.3333
7.7 65.3333
8 58.0
8.3 74.0
8.6 62.0
8.9 71.3333
9.2 78.0
9.5 91.3333
9.8 88.6667
10.1 82.0
10.4 81.3333
10.7 82.0
11 98.0
11.3 80.0
11.6 108.667
11.9 88.6667
12.2 90.6667
12.5 98.6667
12.8 100.0
13.1 81.3333
13.4 90.0
13.7 74.6667
14 74.0
14.3 65.3333
14.6 75.3333
14.9 67.3333
15.2 56.0
15.5 76.6667
15.8 68.6667
16.1 67.3333
16.4 82.0
16.7 66.0
17 61.3333
17.3 67.3333
17.6 70.0
17.9 76.0
18.2 68.0
18.5 78.6667
18.8 72.6667
19.1 69.3333
19.4 75.3333
19.7 70.0
20 64.0
20.3 78.6667
20.6 207.333
20.9 120.0
21.2 88.6667
21.5 84.0
21.8 82.6667
22.1 95.3333
22.4 85.3333
22.7 81.3333
23 70.6667
23.3 93.3333
23.6 90.6667
23.9 78.0
24.2 62.0
24.5 86.0
24.8 92.6667
25.1 93.3333
25.4 89.3333
25.7 86.0
26 111.333
26.3 226.667
26.6 114.667
26.9 96.6667
27.2 85.3333
27.5 93.3333
27.8 120.667
28.1 99.3333
28.4 88.0
28.7 83.3333
29 96.6667
29.3 91.3333
29.6 109.333
29.9 97.3333
30.2 90.6667
30.5 81.3333
30.8 92.6667
31.1 92.6667
31.4 105.333
31.7 92.6667
32 96.6667
32.3 84.0
32.6 82.0
32.9 81.3333
33.2 95.3333
33.5 92.6667
33.8 90.6667
34.1 88.0
34.4 87.3333
34.7 83.3333
35 86.0
35.3 81.3333
35.6 84.0
35.9 82.0
36.2 81.3333
36.5 111.333
36.8 84.6667
37.1 86.6667
37.4 83.3333
37.7 77.3333
38 112.667
38.3 96.6667
38.6 72.0
38.9 106.667
39.2 394.0
39.5 509.333
39.8 96.6667
40.1 265.333
40.4 87.3333
40.7 79.3333
41 92.0
41.3 91.3333
41.6 95.3333
41.9 86.6667
42.2 1204.67
42.5 114.667
42.8 70.0
43.1 90.0
43.4 86.0
43.7 73.3333
44 67.3333
44.3 70.6667
44.6 72.6667
44.9 91.3333
45.2 72.6667
45.5 118.667
45.8 110.0
46.1 70.0
46.4 63.3333
46.7 82.0
47 82.6667
47.3 64.0
47.6 75.3333
47.9 69.3333
48.2 73.3333
48.5 74.6667
48.8 62.0
49.1 100.667
49.4 114.0
49.7 70.0
50 705.333
50.3 95.3333
50.6 87.3333
50.9 66.0
51.2 71.3333
51.5 61.3333
51.8 69.3333
52.1 60.0
52.4 78.6667
52.7 71.3333
53 64.0
53.3 79.3333
53.6 88.0
53.9 76.6667
54.2 70.0
54.5 112.0
54.8 711.333
55.1 296.0
55.4 90.0
55.7 81.3333
56 70.6667
56.3 73.3333
56.6 79.3333
56.9 80.0
57.2 68.6667
57.5 77.3333
57.8 78.0
58.1 92.0
58.4 86.0
58.7 80.0
59 86.6667
59.3 79.3333
59.6 190.667
59.9 638.667
60.2 96.6667
60.5 84.0
60.8 74.0
61.1 88.0
61.4 88.6667
61.7 80.0
62 76.0
62.3 86.0
62.6 70.6667
62.9 80.0
63.2 86.6667
63.5 91.3333
63.8 368.0
64.1 127.333
64.4 90.0
64.7 93.3333
65 98.6667
65.3 80.0
65.6 174.667
65.9 111.333
66.2 94.0
66.5 77.3333
66.8 98.0
67.1 111.333
67.4 264.667
67.7 730.0
68 1494.67
68.3 148.0
68.6 103.333
68.9 105.333
69.2 82.0
69.5 78.0
69.8 95.3333
70.1 86.6667
70.4 100.0
70.7 85.3333
71 88.0
71.3 89.3333
71.6 93.3333
71.9 91.3333
72.2 98.0
72.5 99.3333
72.8 83.3333
73.1 118.667
73.4 136.0
73.7 92.6667
74 108.667
74.3 94.6667
74.6 82.0
74.9 102.667
75.2 102.667
75.5 611.333
75.8 122.0
76.1 94.6667
76.4 87.3333
76.7 94.6667
77 85.3333
77.3 102.0
77.6 146.0
77.9 84.0
78.2 86.0
78.5 100.0
78.8 105.333
79.1 105.333
79.4 122.0
79.7 192.667
80 198.667
80.3 101.333
80.6 96.6667
80.9 729.333
81.2 433.333
81.5 146.0
81.8 107.333
82.1 89.3333
82.4 90.0
82.7 92.0
83 90.6667
83.3 102.0
83.6 97.3333
83.9 98.0
84.2 93.3333
84.5 78.6667
84.8 166.0

File: XRD_empty_cal_conv.xy
# scan speed: 3.0
# theta min: 5.0
# theta_max: 85.0
# spacing: 0.05
# two theta, intensity
5.0 28.0
5.3 64.0
5.6 66.0
5.9 68.0
6.2 61.0
6.5 59.0
6.8 60.0
7.1 51.0
7.4 51.0
7.7 55.0
8 60.0
8.3 36.0
8.6 53.0
8.9 47.0
9.2 44.0
9.5 50.0
9.8 48.0
10.1 58.0
10.4 47.0
10.7 48.0
11 59.0
11.3 46.0
11.6 55.0
11.9 48.0
12.2 52.0
12.5 40.0
12.8 64.0
13.1 40.0
13.4 41.0
13.7 41.0
14 49.0
14.3 44.0
14.6 54.0
14.9 54.0
15.2 38.0
15.5 43.0
15.8 35.0
16.1 48.0
16.4 31.0
16.7 50.0
17 38.0
17.3 47.0
17.6 39.0
17.9 25.0
18.2 33.0
18.5 43.0
18.8 39.0
19.1 38.0
19.4 39.0
19.7 35.0
20 35.0
20.3 38.0
20.6 33.0
20.9 33.0
21.2 35.0
21.5 34.0
21.8 42.0
22.1 45.0
22.4 36.0
22.7 34.0
23 38.0
23.3 36.0
23.6 44.0
23.9 40.0
24.2 39.0
24.5 34.0
24.8 41.0
25.1 32.0
25.4 38.0
25.7 38.0
26 46.0
26.3 39.0
26.6 29.0
26.9 32.0
27.2 33.0
27.5 33.0
27.8 32.0
28.1 20.0
28.4 38.0
28.7 38.0
29 36.0
29.3 32.0
29.6 47.0
29.9 41.0
30.2 35.0
30.5 32.0
30.8 26.0
31.1 41.0
31.4 34.0
31.7 44.0
32 31.0
32.3 24.0
32.6 32.0
32.9 34.0
33.2 30.0
33.5 40.0
33.8 22.0
34.1 36.0
34.4 36.0
34.7 30.0
35 44.0
35.3 41.0
35.6 25.0
35.9 36.0
36.2 41.0
36.5 34.0
36.8 25.0
37.1 36.0
37.4 40.0
37.7 35.0
38 44.0
38.3 42.0
38.6 30.0
38.9 34.0
39.2 47.0
39.5 26.0
39.8 35.0
40.1 29.0
40.4 39.0
40.7 50.0
41 44.0
41.3 28.0
41.6 25.0
41.9 51.0
42.2 37.0
42.5 37.0
42.8 29.0
43.1 24.0
43.4 32.0
43.7 41.0
44 50.0
44.3 41.0
44.6 30.0
44.9 30.0
45.2 38.0
45.5 39.0
45.8 44.0
46.1 33.0
46.4 49.0
46.7 43.0
47 40.0
47.3 46.0
47.6 34.0
47.9 32.0
48.2 32.0
48.5 41.0
48.8 46.0
49.1 51.0
49.4 38.0
49.7 49.0
50 56.0
50.3 42.0
50.6 40.0
50.9 34.0
51.2 44.0
51.5 38.0
51.8 46.0
52.1 38.0
52.4 37.0
52.7 42.0
53 46.0
53.3 52.0
53.6 52.0
53.9 55.0
54.2 43.0
54.5 31.0
54.8 50.0
55.1 45.0
55.4 38.0
55.7 32.0
56 62.0
56.3 50.0
56.6 47.0
56.9 51.0
57.2 55.0
57.5 69.0
57.8 58.0
58.1 55.0
58.4 51.0
58.7 59.0
59 54.0
59.3 69.0
59.6 46.0
59.9 60.0
60.2 59.0
60.5 51.0
60.8 55.0
61.1 49.0
61.4 64.0
61.7 60.0
62 80.0
62.3 55.0
62.6 53.0
62.9 62.0
63.2 60.0
63.5 58.0
63.8 67.0
64.1 70.0
64.4 64.0
64.7 61.0
65 57.0
65.3 55.0
65.6 72.0
65.9 50.0
66.2 75.0
66.5 71.0
66.8 80.0
67.1 65.0
67.4 68.0
67.7 55.0
68 80.0
68.3 62.0
68.6 78.0
68.9 83.0
69.2 63.0
69.5 68.0
69.8 83.0
70.1 70.0
70.4 76.0
70.7 65.0
71 69.0
71.3 74.0
71.6 73.0
71.9 62.0
72.2 76.0
72.5 69.0
72.8 70.0
73.1 80.0
73.4 69.0
73.7 76.0
74 81.0
74.3 74.0
74.6 74.0
74.9 69.0
75.2 72.0
75.5 75.0
75.8 56.0
76.1 65.0
76.4 68.0
76.7 72.0
77 92.0
77.3 76.0
77.6 78.0
77.9 71.0
78.2 70.0
78.5 73.0
78.8 62.0
79.1 73.0
79.4 70.0
79.7 67.0
80 78.0
80.3 60.0
80.6 67.0
80.9 77.0
81.2 77.0
81.5 79.0
81.8 65.0
82.1 79.0
82.4 62.0
82.7 61.0
83 51.0
83.3 85.0
83.6 73.0
83.9 84.0
84.2 70.0
84.5 74.0
84.8 73.0